File: solar/solar.csv
"Remote Data: Wavelength (nm)","Remote Data: Intensity (rel)"
350.2,0.0605783
350.9,0.066331
351.5,0.0588083
352.2,0.0611887
352.8,0.0623636
353.4,0.0665751
354.1,0.0679942
354.7,0.0690929
355.4,0.0684215
356,0.071931
356.6,0.0661479
357.3,0.0584726
357.9,0.0655833
358.6,0.0610513
359.2,0.0598459
359.8,0.0735332
360.5,0.0776379
361.1,0.0726329
361.8,0.0687419
362.4,0.0796521
363,0.0813458
363.7,0.0874189
364.3,0.0885634
364.9,0.0909133
365.6,0.0996719
366.2,0.109529
366.9,0.111009
367.5,0.10724
368.1,0.110582
368.8,0.102388
369.4,0.112383
370.1,0.118959
370.7,0.107805
371.3,0.113344
372,0.109865
372.6,0.101686
373.3,0.0989242
373.9,0.0951705
374.5,0.103639
375.2,0.113191
375.8,0.126528
376.4,0.125536
377.1,0.143847
377.7,0.161089
378.4,0.14934
379,0.134081
379.6,0.130526
380.3,0.146654
380.9,0.14316
381.6,0.126131
382.2,0.111788
382.8,0.100649
383.5,0.109117
384.1,0.138827
384.8,0.150347
385.4,0.143954
386,0.150515
386.7,0.150698
387.3,0.154376
387.9,0.15938
388.6,0.171176
389.2,0.20415
389.9,0.198688
390.5,0.21236
391.1,0.214664
391.8,0.17969
392.4,0.136172
393.1,0.115007
393.7,0.170184
394.3,0.221042
395,0.218311
395.6,0.193729
396.3,0.153567
396.9,0.200961
397.5,0.289006
398.2,0.319005
398.8,0.32871
399.5,0.341192
400.1,0.341115
400.7,0.357504
401.4,0.373465
402,0.37821
402.6,0.356252
403.3,0.373449
403.9,0.34461
404.6,0.372381
405.2,0.371771
405.8,0.36144
406.5,0.372305
407.1,0.393942
407.8,0.407568
408.4,0.410651
409,0.383993
409.7,0.391363
410.3,0.438331
411,0.452461
411.6,0.446387
412.2,0.447532
412.9,0.44152
413.5,0.448203
414.1,0.458289
414.8,0.460548
415.4,0.469581
416.1,0.453986
416.7,0.443442
417.4,0.453437
418.1,0.460853
418.7,0.460227
419.4,0.462486
420.1,0.499336
420.7,0.489937
421.4,0.465064
422.1,0.460594
422.7,0.494194
423.4,0.500832
424.1,0.480873
424.7,0.479622
425.4,0.489631
426.1,0.487755
426.7,0.470665
427.4,0.486687
428.1,0.470665
428.7,0.448508
429.4,0.386572
430.1,0.406195
430.7,0.50695
431.4,0.5514
432.1,0.528084
432.7,0.566735
433.4,0.507179
434.1,0.572457
434.7,0.583825
435.4,0.607355
436.1,0.603906
436.7,0.579232
437.4,0.568536
438.1,0.539956
438.7,0.591852
439.4,0.602594
440.1,0.601114
440.7,0.639872
441.4,0.652445
442.1,0.660487
442.7,0.658534
443.4,0.6692
444.1,0.676097
444.7,0.654704
445.4,0.636988
446.1,0.686809
446.7,0.703334
447.4,0.712245
448.1,0.728252
448.7,0.741009
449.4,0.753307
450.1,0.779095
450.8,0.773709
451.4,0.747387
452.1,0.728786
452.7,0.715908
453.4,0.765148
454,0.759701
454.7,0.753124
455.3,0.781125
456,0.794873
456.6,0.797436
457.3,0.793744
457.9,0.784161
458.6,0.789197
459.2,0.773892
459.9,0.803708
460.6,0.817395
461.2,0.821683
461.9,0.817517
462.5,0.828229
463.2,0.813794
463.8,0.811353
464.5,0.801221
465.1,0.805737
465.8,0.819196
466.4,0.783963
467.1,0.807996
467.7,0.803372
468.4,0.80032
469.1,0.807523
469.7,0.772793
470.4,0.790173
471,0.82977
471.7,0.846204
472.3,0.818769
473,0.814206
473.6,0.842084
474.3,0.857847
474.9,0.833753
475.6,0.844144
476.2,0.842405
476.9,0.864881
477.6,0.876661
478.2,0.863279
478.9,0.887953
479.5,0.878141
480.2,0.884947
480.8,0.898116
481.5,0.919951
482.1,0.8869
482.8,0.898802
483.4,0.893126
484.1,0.88101
484.8,0.830579
485.4,0.746197
486.1,0.807294
486.7,0.847349
487.4,0.895659
488,0.870603
488.7,0.891295
489.3,0.936202
490,0.928161
490.6,0.903929
491.3,0.875746
491.9,0.904295
492.6,0.923079
493.2,0.908919
493.9,0.947356
494.6,0.92224
495.2,0.90956
495.9,0.932174
496.5,0.938674
497.2,0.896956
497.8,0.877119
498.5,0.921981
499.1,0.889586
499.8,0.859373
500.4,0.86006
501.1,0.853925
501.7,0.869703
502.4,0.864637
503.1,0.850553
503.7,0.882506
504.4,0.907713
505,0.926802
505.7,0.921889
506.3,0.901289
507,0.883406
507.6,0.908659
508.3,0.919249
508.9,0.917113
509.6,0.909407
510.2,0.929595
510.9,0.947219
511.6,0.914046
512.2,0.904631
512.9,0.902235
513.5,0.884871
514.2,0.915099
514.8,0.902281
515.5,0.844266
516.1,0.783795
516.8,0.837232
517.4,0.833875
518.1,0.879927
518.7,0.897185
519.4,0.909804
520.1,0.911849
520.7,0.925002
521.4,0.91458
522,0.897124
522.7,0.923186
523.3,0.951278
524,0.920165
524.6,0.916045
525.3,0.865202
525.9,0.816938
526.6,0.88574
527.2,0.914275
527.9,0.938811
528.6,0.932296
529.2,0.922774
529.9,0.951247
530.5,0.929122
531.2,0.893629
531.8,0.867231
532.5,0.911269
533.1,0.914336
533.8,0.922698
534.4,0.958495
535.1,0.936706
535.8,0.888563
536.4,0.921019
537.1,0.931945
537.8,0.914183
538.4,0.884398
539.1,0.866011
539.8,0.853101
540.4,0.883848
541.1,0.8963
541.8,0.89276
542.5,0.885679
543.1,0.902159
543.8,0.897704
544.5,0.877623
545.1,0.882124
545.8,0.895064
546.5,0.869612
547.2,0.858518
547.8,0.885527
548.5,0.891539
549.2,0.882063
549.8,0.864073
550.5,0.867201
551.2,0.871275
551.8,0.846754
552.5,0.866514
553.2,0.880247
553.9,0.869001
554.5,0.8551
555.2,0.830304
555.9,0.82533
556.5,0.817685
557.2,0.819745
557.9,0.772992
558.6,0.781765
559.2,0.790539
559.9,0.80853
560.6,0.817075
561.2,0.785931
561.9,0.798184
562.6,0.817182
563.3,0.798489
563.9,0.817853
564.6,0.809033
565.3,0.790921
565.9,0.797269
566.6,0.803876
567.3,0.793622
567.9,0.775784
568.6,0.777981
569.3,0.768032
570,0.771984
570.6,0.755367
571.3,0.775921
572,0.783444
572.6,0.795163
573.3,0.76875
574,0.774762
574.7,0.763745
575.3,0.769375
576,0.758267
576.7,0.767056
577.3,0.744671
578,0.763378
578.7,0.766934
579.4,0.785016
580,0.788128
580.7,0.795315
581.4,0.794522
582,0.810224
582.7,0.800412
583.4,0.81709
584,0.811978
584.7,0.795621
585.4,0.779583
586.1,0.793805
586.7,0.799023
587.4,0.789746
588.1,0.734661
588.7,0.687861
589.4,0.702953
590.1,0.767102
590.7,0.799786
591.4,0.775631
592.1,0.780758
592.7,0.79321
593.4,0.795224
594,0.777707
594.7,0.78291
595.4,0.79884
596,0.81149
596.7,0.803891
597.4,0.814069
598,0.805249
598.7,0.821592
599.3,0.827344
600,0.820157
600.7,0.83534
601.3,0.81593
602,0.822766
602.7,0.844846
603.3,0.854063
604,0.856779
604.6,0.867964
605.3,0.85568
606,0.87602
606.6,0.865736
607.3,0.877607
608,0.857008
608.6,0.862745
609.3,0.868833
609.9,0.860914
610.6,0.871336
611.3,0.863157
611.9,0.849943
612.6,0.862638
613.3,0.854887
613.9,0.851575
614.6,0.859205
615.2,0.860349
615.9,0.844877
616.6,0.839841
617.2,0.853239
617.9,0.870451
618.6,0.861402
619.2,0.865339
619.9,0.857755
620.5,0.86862
621.2,0.851316
621.9,0.833051
622.5,0.834043
623.2,0.815366
623.9,0.830243
624.5,0.816709
625.2,0.815793
625.8,0.791333
626.5,0.795911
627.2,0.773632
627.8,0.747463
628.5,0.775372
629.2,0.764523
629.8,0.771221
630.5,0.785992
631.1,0.770397
631.8,0.752819
632.5,0.779934
633.1,0.785672
633.8,0.784771
634.4,0.78909
635.1,0.801266
635.8,0.799634
636.4,0.792386
637.1,0.812665
637.8,0.81442
638.4,0.800458
639.1,0.782727
639.7,0.790814
640.4,0.778714
641.1,0.774685
641.7,0.787991
642.4,0.779431
643,0.791485
643.7,0.775402
644.3,0.779675
645,0.770443
645.6,0.773571
646.3,0.749676
646.9,0.745892
647.6,0.715938
648.2,0.731731
648.9,0.718074
649.5,0.716838
650.2,0.737896
650.8,0.737087
651.5,0.728298
652.1,0.729702
652.8,0.736782
653.4,0.721065
654.1,0.706783
654.7,0.694438
655.4,0.665461
656,0.59765
656.7,0.638788
657.3,0.696544
658,0.706981
658.6,0.701839
659.3,0.718456
659.9,0.718975
660.6,0.717784
661.2,0.71635
661.9,0.725917
662.5,0.728435
663.2,0.709117
663.8,0.694163
664.5,0.699016
665.1,0.690669
665.8,0.690608
666.4,0.685725
667.1,0.678828
667.8,0.674571
668.4,0.679469
669.1,0.678813
669.7,0.672786
670.4,0.663706
671.1,0.65449
671.7,0.666072
672.4,0.667399
673,0.655604
673.7,0.65095
674.4,0.633692
675,0.633661
675.7,0.642298
676.3,0.641459
677,0.631632
677.7,0.635019
678.3,0.615854
679,0.629679
679.6,0.630655
680.3,0.606729
681,0.608957
681.6,0.612558
682.3,0.597452
683,0.605982
683.6,0.587015
684.3,0.56788
684.9,0.56556
685.6,0.512795
686.3,0.414817
686.9,0.343893
687.6,0.413764
688.2,0.439872
688.9,0.439429
689.6,0.449668
690.2,0.466346
690.9,0.47837
691.5,0.484306
692.2,0.483406
692.9,0.472099
693.5,0.462562
694.2,0.468482
694.9,0.476112
695.5,0.474357
696.2,0.501167
696.8,0.492576
697.5,0.481498
698.2,0.495323
698.8,0.492927
699.5,0.481865
700.1,0.488914
700.8,0.488624
701.5,0.488457
702.1,0.504921
702.8,0.525704
703.4,0.546349
704.1,0.538796
704.8,0.537514
705.4,0.543923
706.1,0.545022
706.8,0.556954
707.4,0.5579
708,0.5505
708.6,0.545541
709.3,0.551431
709.9,0.561654
710.5,0.555032
711.2,0.542596
711.8,0.530053
712.4,0.526406
713,0.525139
713.7,0.517342
714.3,0.507927
714.9,0.490517
715.6,0.451804
716.2,0.39881
716.8,0.342916
717.5,0.342733
718.1,0.340261
718.7,0.332036
719.3,0.362737
720,0.382101
720.6,0.417212
721.2,0.422965
721.9,0.416327
722.5,0.37789
723.1,0.354772
723.7,0.361563
724.4,0.362158
725,0.358022
725.6,0.357916
726.3,0.377386
726.9,0.359747
727.5,0.378851
728.2,0.358145
728.8,0.36817
729.4,0.380087
730,0.370642
730.7,0.381827
731.3,0.407263
731.9,0.418235
732.6,0.423529
733.2,0.420874
733.8,0.413931
734.5,0.410742
735.1,0.411673
735.7,0.405035
736.3,0.416464
737,0.42002
737.6,0.414191
738.2,0.414481
738.9,0.416159
739.5,0.410758
740.1,0.415488
740.8,0.40528
741.4,0.403815
742.1,0.414237
742.8,0.407736
743.5,0.403037
744.2,0.400595
744.9,0.398123
745.6,0.3953
746.3,0.403296
746.9,0.390951
747.6,0.388266
748.3,0.38468
749,0.390249
749.7,0.38172
750.4,0.366415
751.1,0.364401
751.8,0.365545
752.4,0.368688
753.1,0.365743
753.8,0.363882
754.5,0.351263
755.2,0.336202
755.9,0.337377
756.6,0.326024
757.3,0.28542
757.9,0.243488
758.6,0.163851
759.3,0.0704356
760,0.0453346
760.7,0.0558328
761.4,0.0900893
762.1,0.0909285
762.8,0.081651
763.4,0.0978408
764.1,0.117525
764.8,0.165606
765.5,0.194018
766.2,0.222797
766.9,0.247196
767.6,0.267155
768.3,0.280446
768.9,0.288869
769.6,0.280064
770.3,0.288258
771,0.298451
771.7,0.295949
772.4,0.303243
773.1,0.292088
773.8,0.294636
774.5,0.284138
775.1,0.279377
775.8,0.285924
776.5,0.28922
777.2,0.289494
777.9,0.277119
778.6,0.275639
779.3,0.273152
780,0.280339
780.6,0.271931
781.3,0.264958
782,0.273136
782.7,0.264714
783.4,0.25864
784.1,0.258076
784.8,0.261265
785.5,0.250187
786.1,0.253376
786.8,0.239673
787.5,0.241459
788.2,0.231067
788.9,0.230655
789.6,0.226368
790.3,0.225895
791,0.232136
791.6,0.222354
792.3,0.226993
793,0.211841
793.7,0.2121
794.4,0.21825
795.1,0.218753
795.7,0.210391
796.4,0.20737
797.1,0.208423
797.7,0.204089
798.4,0.196414
799.1,0.204211
799.7,0.204776
800.4,0.19826
801.1,0.191318
801.7,0.187335
802.4,0.18471
803,0.18378
803.7,0.174151
804.4,0.188128
805,0.187427
805.7,0.182971
806.4,0.181064
807,0.176669
807.7,0.182101
808.3,0.179614
809,0.167193
809.7,0.16495
810.3,0.165148
811,0.160845
811.7,0.150927
812.3,0.146487
813,0.139986
813.7,0.130526
814.3,0.123598
815,0.114214
815.6,0.107164
816.3,0.10425
817,0.108125
817.6,0.0968032
818.3,0.0937972
819,0.100084
819.6,0.100511
820.3,0.101808
821,0.107607
821.6,0.104524
822.3,0.105272
822.9,0.104891
823.6,0.102388
824.3,0.0925154
824.9,0.0861524
825.6,0.099443
826.3,0.105715
826.9,0.108705
827.6,0.106325
828.3,0.106722
828.9,0.107485
829.6,0.0978714
830.2,0.10518
830.9,0.100984
831.6,0.0981613
832.2,0.0955673
832.9,0.0950942
833.6,0.0984207
834.2,0.0975357
834.9,0.0980545
835.5,0.0966201
836.2,0.101274
836.9,0.101488
837.5,0.0954452
838.2,0.105898
838.9,0.101732
839.5,0.103349
840.2,0.10248
840.9,0.105364
841.5,0.104112
842.2,0.10425
842.8,0.100954
843.5,0.0979934
844.2,0.0990311
844.8,0.104005
845.5,0.101793
846.2,0.100175
846.8,0.095079
847.5,0.0972457
848.2,0.0977493
848.8,0.098497
849.5,0.0919509
850.1,0.0991684
850.8,0.0924239
851.5,0.0907607
852.1,0.0876173
852.8,0.0855116
853.5,0.0872053
854.1,0.0856031
854.8,0.0760967
855.5,0.0849622
856.1,0.0737469
856.8,0.0756237
857.4,0.0811475
858.1,0.0803998
858.8,0.0906538
859.4,0.0848859
860.1,0.0864729
860.8,0.0810407
861.4,0.0842298
862.1,0.0796521
862.7,0.0789044
863.4,0.0727245
864.1,0.0749523
864.7,0.0781872
865.4,0.0725719
866.1,0.0721447
866.7,0.0751659
867.4,0.0742657
868.1,0.0780652
868.7,0.0680095
869.4,0.0680705
870.1,0.067155
870.7,0.0695659
871.4,0.0734112
872.1,0.0728618
872.7,0.0696117
873.4,0.0750134
874,0.0661326
874.7,0.077409
875.4,0.0634165
876,0.0661021
876.7,0.0722362
877.4,0.0655528
878,0.0621347
878.7,0.0630198
879.3,0.0631724
880,0.0596017
880.7,0.0607614
881.3,0.0613565
882,0.0609903
882.7,0.0598001
883.3,0.0632639
884,0.0591897
884.7,0.0580301
885.3,0.0587778
886,0.0586862
886.6,0.0568246
887.3,0.0572824
888,0.0560006
888.6,0.0567025
889.3,0.0569772
890,0.0545815
890.6,0.0558175
891.3,0.051194
892,0.0491035
892.6,0.0488899
893.3,0.0479744
893.9,0.0529946
894.6,0.0497292
895.3,0.0451667
895.9,0.0433356
896.6,0.0374762
897.3,0.0352178
897.9,0.0416266
898.6,0.0375372
899.3,0.0376745
899.9,0.0391089